File: examples/data/EIS CFO pH14 light.mpt
EC-Lab ASCII FILE
Nb header lines : 60

Staircase Potentio Electrochemical Impedance Spectroscopy (Mott-Schottky)

Run on channel : 1 (SN 0633)
User :
Electrode connection : standard
Ewe ctrl range : min = -10.00 V, max = 10.00 V
Ewe,I filtering : 50 kHz
Safety Limits :
	Do not start on E overload
Channel : Grounded
Acquisition started on : 01/18/2018 19:43:37
Saved on :
	File : pH14_EIS_light.mpr
	Directory : C:\Users\user\Desktop\Data\Florent\180117\1.7_O2\
	Host : 192.168.0.87
Device : SP-200 (SN 0001)
Address : 192.168.0.88
EC-Lab for windows v11.12 (software)
Internet server v11.12 (firmware)
Command interpretor v11.12 (firmware)
Electrode material :
Initial state :
Electrolyte :
Comments :
Cable : standard
Electrode surface area : 0.001 cm²
Characteristic mass : 0.001 g
Equivalent Weight : 0.000 g/eq.
Density : 0.000 g/cm3
Multi Sine          Single sine
Ei (V)              0.1000
vs.                 Ref
ts (h:m:s)          0:00:5.0000
record              1
dI                  0.000
unit dI             mA
dt (s)              0.100
fi                  1.000
unit fi             MHz
ff                  100.000
unit ff             mHz
Nd                  10
Points              per decade
spacing             Logarithmic
Va (mV)             25.0
pw                  0.10
Na                  5
corr                0
E range min (V)     -10.000
E range max (V)     10.000
I Range             Auto
Bandwidth           8
Ef (V)              -0.3000
vs.                 Ref
N                   20

freq/Hz	Re(Z)/Ohm	-Im(Z)/Ohm	|Z|/Ohm	Phase(Z)/deg	time/s	<Ewe>/V	<I>/mA	Cs/µF	Cs-2/µF-2	Cp/µF	Cp-2/µF-2	cycle number	I Range	|Ewe|/V	|I|/A	Re(Y)/Ohm-1	Im(Y)/Ohm-1	|Y|/Ohm-1	Phase(Y)/deg
0.0000000E+000	0.0000000E+000	0.0000000E+000	0.0000000E+000	0.0000000E+000	0.3806	0.100485	0.0170809	0.0000000E+000	0.0000000E+000	0.0000000E+000	0.0000000E+000	1	41	0.0000000E+000	0.0000000E+000	0.0000000E+000	0.0000000E+000	0.0000000E+000	0.0000000E+000
0.0000000E+000	0.0000000E+000	0.0000000E+000	0.0000000E+000	0.0000000E+000	1.4846	0.100518	0.0119603	0.0000000E+000	0.0000000E+000	0.0000000E+000	0.0000000E+000	1	41	0.0000000E+000	0.0000000E+000	0.0000000E+000	0.0000000E+000	0.0000000E+000	0.0000000E+000
0.0000000E+000	0.0000000E+000	0.0000000E+000	0.0000000E+000	0.0000000E+000	2.5886	0.100519	0.0104246	0.0000000E+000	0.0000000E+000	0.0000000E+000	0.0000000E+000	1	41	0.0000000E+000	0.0000000E+000	0.0000000E+000	0.0000000E+000	0.0000000E+000	0.0000000E+000
0.0000000E+000	0.0000000E+000	0.0000000E+000	0.0000000E+000	0.0000000E+000	3.6956	0.100498	0.0098732	0.0000000E+000	0.0000000E+000	0.0000000E+000	0.0000000E+000	1	41	0.0000000E+000	0.0000000E+000	0.0000000E+000	0.0000000E+000	0.0000000E+000	0.0000000E+000
0.0000000E+000	0.0000000E+000	0.0000000E+000	0.0000000E+000	0.0000000E+000	4.8046	0.100499	0.00945756	0.0000000E+000	0.0000000E+000	0.0000000E+000	0.0000000E+000	1	41	0.0000000E+000	0.0000000E+000	0.0000000E+000	0.0000000E+000	0.0000000E+000	0.0000000E+000
154316	41.8852	5.81177	42.2865	-7.89962	13.0161	0.100322	0.0104536	0.17746	31.7541	0.00335207	88996.5	1	39	0.025865	0.000611661	0.0234238	0.00325017	0.0236482	7.89962
11816.4	46.8488	2.34019	46.9072	-2.85967	20.9681	0.100348	0.0102095	5.7555	0.0301879	0.0143254	4872.87	1	39	0.0252828	0.000538997	0.0212921	0.00106359	0.0213187	2.85967
904.709	49.4808	9.67555	50.4179	-11.0641	32.3748	0.100527	0.0099042	18.1817	0.00302502	0.669604	2.23031	1	39	0.0258473	0.000512661	0.0194656	0.00380633	0.0198342	11.0641
69.2685	68.2603	83.6334	107.954	-50.7792	44.5669	0.100553	0.0096348	27.4729	0.00132492	16.4888	0.00367809	1	39	0.0258067	0.000239053	0.00585723	0.00717636	0.00926323	50.7792
5.3038	384.47	631.568	739.389	-58.6688	56.6823	0.100559	0.00748019	47.513	0.00044297	34.6663	0.000832118	1	40	0.0257931	3.48843e-05	0.000703262	0.00115525	0.00135247	58.6688
0.406393	1934.88	1932.45	2734.62	-44.964	113.466	0.100535	0.00612514	202.659	2.43483e-05	101.202	9.76382e-05	1	41	0.025798	9.43388e-06	0.000258739	0.000258414	0.000365682	44.964
0.0000000E+000	0.0000000E+000	0.0000000E+000	0.0000000E+000	0.0000000E+000	299.1	0.0804967	0.001667	0.0000000E+000	0.0000000E+000	0.0000000E+000	0.0000000E+000	2	42	0.0000000E+000	0.0000000E+000	0.0000000E+000	0.0000000E+000	0.0000000E+000	0.0000000E+000
0.0000000E+000	0.0000000E+000	0.0000000E+000	0.0000000E+000	0.0000000E+000	300.203	0.0804972	0.0036805	0.0000000E+000	0.0000000E+000	0.0000000E+000	0.0000000E+000	2	42	0.0000000E+000	0.0000000E+000	0.0000000E+000	0.0000000E+000	0.0000000E+000	0.0000000E+000
0.0000000E+000	0.0000000E+000	0.0000000E+000	0.0000000E+000	0.0000000E+000	301.305	0.0804852	0.00402164	0.0000000E+000	0.0000000E+000	0.0000000E+000	0.0000000E+000	2	42	0.0000000E+000	0.0000000E+000	0.0000000E+000	0.0000000E+000	0.0000000E+000	0.0000000E+000
0.0000000E+000	0.0000000E+000	0.0000000E+000	0.0000000E+000	0.0000000E+000	302.408	0.080499	0.00413924	0.0000000E+000	0.0000000E+000	0.0000000E+000	0.0000000E+000	2	42	0.0000000E+000	0.0000000E+000	0.0000000E+000	0.0000000E+000	0.0000000E+000	0.0000000E+000
0.0000000E+000	0.0000000E+000	0.0000000E+000	0.0000000E+000	0.0000000E+000	303.511	0.0804852	0.0042432	0.0000000E+000	0.0000000E+000	0.0000000E+000	0.0000000E+000	2	42	0.0000000E+000	0.0000000E+000	0.0000000E+000	0.0000000E+000	0.0000000E+000	0.0000000E+000
96718.7	41.3385	5.42038	41.6924	-7.47011	313.668	0.0803298	0.00736809	0.303585	10.8503	0.00513129	37979.3	2	39	0.0257939	0.000618672	0.0237816	0.00311829	0.0239852	7.47011
7540.05	46.7869	3.12802	46.8913	-3.82492	321.695	0.0805235	0.00726377	6.74802	0.0219607	0.0300282	1109.02	2	39	0.0254833	0.000543455	0.0212784	0.0014226	0.0213259	3.82492
566.996	50.6093	15.2029	52.8435	-16.7202	333.721	0.0805123	0.00707261	18.4634	0.00293342	1.52822	0.428183	2	39	0.0257715	0.000487695	0.0181237	0.00544434	0.0189238	16.7202
43.4028	81.2337	132.644	155.542	-58.5159	345.955	0.0805437	0.00718243	27.6449	0.00130849	20.1045	0.00247407	2	39	0.0257266	0.0001654	0.00335768	0.00548266	0.00642912	58.5159
3.32447	612.753	882.935	1074.73	-55.2395	359.017	0.0805284	0.00464785	54.2212	0.000340143	36.5956	0.000746693	2	41	0.0257207	2.39323e-05	0.000530504	0.000764419	0.000930468	55.2395
0.254446	2509.36	3151.45	4028.47	-51.4712	448.676	0.0805178	0.0047022	198.479	2.53846e-05	121.466	6.77778e-05	2	41	0.0257196	6.38446e-06	0.000154626	0.000194192	0.000248233	51.4712
0.0000000E+000	0.0000000E+000	0.0000000E+000	0.0000000E+000	0.0000000E+000	598.436	0.0605143	0.00303693	0.0000000E+000	0.0000000E+000	0.0000000E+000	0.0000000E+000	3	42	0.0000000E+000	0.0000000E+000	0.0000000E+000	0.0000000E+000	0.0000000E+000	0.0000000E+000
0.0000000E+000	0.0000000E+000	0.0000000E+000	0.0000000E+000	0.0000000E+000	599.543	0.0605241	0.00318928	0.0000000E+000	0.0000000E+000	0.0000000E+000	0.0000000E+000	3	42	0.0000000E+000	0.0000000E+000	0.0000000E+000	0.0000000E+000	0.0000000E+000	0.0000000E+000
0.0000000E+000	0.0000000E+000	0.0000000E+000	0.0000000E+000	0.0000000E+000	600.65	0.0605158	0.00328527	0.0000000E+000	0.0000000E+000	0.0000000E+000	0.0000000E+000	3	42	0.0000000E+000	0.0000000E+000	0.0000000E+000	0.0000000E+000	0.0000000E+000	0.0000000E+000
0.0000000E+000	0.0000000E+000	0.0000000E+000	0.0000000E+000	0.0000000E+000	601.757	0.0605256	0.00340786	0.0000000E+000	0.0000000E+000	0.0000000E+000	0.0000000E+000	3	42	0.0000000E+000	0.0000000E+000	0.0000000E+000	0.0000000E+000	0.0000000E+000	0.0000000E+000
791680	34.0265	12.007	36.0828	-19.4365	605.513	0.0603434	0.0064841	0.0167431	3567.21	0.00185398	290931	3	39	0.0257908	0.000714766	0.0261346	0.00922219	0.027714	19.4365
60615.2	41.3065	5.22245	41.6353	-7.20577	613.835	0.0603664	0.00651278	0.502764	3.95614	0.00791022	15981.7	3	39	0.0256875	0.000616964	0.0238284	0.00301266	0.0240181	7.20577
4641.48	46.9979	3.89059	47.1587	-4.73227	622.42	0.0605405	0.00637473	8.8135	0.0128737	0.0599867	277.901	3	39	0.0256795	0.000544533	0.0211327	0.00174941	0.021205	4.73227
355.341	52.0958	22.2722	56.6571	-23.1478	634.588	0.0605184	0.00656066	20.11	0.00247273	3.10763	0.103548	3	39	0.025732	0.00045417	0.0162291	0.00693832	0.01765	23.1478
27.2212	100.395	193.854	218.308	-62.6208	647.01	0.0605584	0.00402254	30.1604	0.00109932	23.7819	0.0017681	3	40	0.0257144	0.000117789	0.00210655	0.00406756	0.00458067	62.6208
2.08444	864.493	1096.5	1396.3	-51.7473	662.213	0.0605606	0.00375754	69.6341	0.000206232	42.9418	0.0005423	3	41	0.0256866	1.83962e-05	0.000443407	0.000562406	0.000716178	51.7473
0.159494	3486.41	4537.85	5722.51	-52.4651	804.812	0.0605572	0.0037887	219.9	2.06799e-05	138.278	5.22991e-05	3	41	0.02568	4.48754e-06	0.000106465	0.000138572	0.000174748	52.4651
0.0000000E+000	0.0000000E+000	0.0000000E+000	0.0000000E+000	0.0000000E+000	897.291	0.040514	0.00164662	0.0000000E+000	0.0000000E+000	0.0000000E+000	0.0000000E+000	4	42	0.0000000E+000	0.0000000E+000	0.0000000E+000	0.0000000E+000	0.0000000E+000	0.0000000E+000
0.0000000E+000	0.0000000E+000	0.0000000E+000	0.0000000E+000	0.0000000E+000	898.399	0.0405014	0.00247423	0.0000000E+000	0.0000000E+000	0.0000000E+000	0.0000000E+000	4	42	0.0000000E+000	0.0000000E+000	0.0000000E+000	0.0000000E+000	0.0000000E+000	0.0000000E+000
0.0000000E+000	0.0000000E+000	0.0000000E+000	0.0000000E+000	0.0000000E+000	899.506	0.0405266	0.00264278	0.0000000E+000	0.0000000E+000	0.0000000E+000	0.0000000E+000	4	42	0.0000000E+000	0.0000000E+000	0.0000000E+000	0.0000000E+000	0.0000000E+000	0.0000000E+000
0.0000000E+000	0.0000000E+000	0.0000000E+000	0.0000000E+000	0.0000000E+000	900.613	0.0405103	0.00276244	0.0000000E+000	0.0000000E+000	0.0000000E+000	0.0000000E+000	4	42	0.0000000E+000	0.0000000E+000	0.0000000E+000	0.0000000E+000	0.0000000E+000	0.0000000E+000
496191	35.087	8.43679	36.0871	-13.5203	905.682	0.0403567	0.00561035	0.0380184	691.851	0.00207799	231586	4	39	0.0257885	0.000714617	0.0269428	0.00647848	0.0277107	13.5203
37998	41.9761	5.11774	42.287	-6.95121	914.006	0.0403429	0.00562618	0.818429	1.49293	0.0119874	6959.08	4	39	0.0255009	0.000603043	0.0234741	0.00286197	0.023648	6.95121
2909.07	47.3349	4.91095	47.589	-5.92319	923.29	0.0405191	0.00574019	11.1404	0.00805748	0.118637	71.0499	4	39	0.0257313	0.000540699	0.0209011	0.00216847	0.0210133	5.92319
222.79	54.6864	32.7811	63.7589	-30.94	935.457	0.0405383	0.0059414	21.7922	0.00210571	5.76056	0.0301349	4	39	0.0257048	0.000403156	0.0134523	0.00806382	0.0156841	30.94
17.0579	136.334	279.961	311.392	-64.0351	947.682	0.040525	0.0036131	33.3271	0.000900337	26.9387	0.00137799	4	40	0.0257009	8.25353e-05	0.00140601	0.00288723	0.00321138	64.0351
1.30535	1141.73	1352.31	1769.83	-49.8261	968.012	0.0405253	0.00334017	90.1608	0.000123017	52.6389	0.0003609	4	41	0.0256846	1.45125e-05	0.000364504	0.000431731	0.000565027	49.8261
0.100051	5044.8	5980.65	7824.2	-49.8517	1195.02	0.0405267	0.00339515	265.981	1.41351e-05	155.406	4.14062e-05	4	41	0.0256841	3.28264e-06	8.24069e-05	9.7694e-05	0.000127809	49.8517
0.0000000E+000	0.0000000E+000	0.0000000E+000	0.0000000E+000	0.0000000E+000	1196.15	0.0205355	0.00137856	0.0000000E+000	0.0000000E+000	0.0000000E+000	0.0000000E+000	5	42	0.0000000E+000	0.0000000E+000	0.0000000E+000	0.0000000E+000	0.0000000E+000	0.0000000E+000
0.0000000E+000	0.0000000E+000	0.0000000E+000	0.0000000E+000	0.0000000E+000	1197.26	0.0205185	0.00206129	0.0000000E+000	0.0000000E+000	0.0000000E+000	0.0000000E+000	5	42	0.0000000E+000	0.0000000E+000	0.0000000E+000	0.0000000E+000	0.0000000E+000	0.0000000E+000
0.0000000E+000	0.0000000E+000	0.0000000E+000	0.0000000E+000	0.0000000E+000	1198.37	0.0205263	0.00228935	0.0000000E+000	0.0000000E+000	0.0000000E+000	0.0000000E+000	5	42	0.0000000E+000	0.0000000E+000	0.0000000E+000	0.0000000E+000	0.0000000E+000	0.0000000E+000
0.0000000E+000	0.0000000E+000	0.0000000E+000	0.0000000E+000	0.0000000E+000	1199.48	0.0205469	0.00239764	0.0000000E+000	0.0000000E+000	0.0000000E+000	0.0000000E+000	5	42	0.0000000E+000	0.0000000E+000	0.0000000E+000	0.0000000E+000	0.0000000E+000	0.0000000E+000
310996	35.2843	6.2046	35.8257	-9.97326	1205.71	0.0203747	0.00521092	0.0824805	146.993	0.00247394	163388	5	39	0.0257484	0.000718712	0.0274911	0.0048342	0.0279129	9.97326
23808.6	42.4368	5.18368	42.7522	-6.96422	1213.91	0.0203366	0.00542274	1.28958	0.601318	0.0189587	2782.18	5	39	0.0272466	0.000637315	0.023218	0.0028361	0.0233906	6.96422
1823.25	47.9348	6.86815	48.4243	-8.15391	1224.01	0.0205227	0.00525935	12.7097	0.00619055	0.255675	15.2976	5	39	0.0256847	0.00053041	0.020442	0.00292896	0.0206508	8.15391
139.598	59.5621	50.3285	77.9782	-40.197	1236.17	0.0205201	0.00556357	22.6531	0.0019487	9.43647	0.01123	5	39	0.0256261	0.000328632	0.00979542	0.0082769	0.0128241	40.197
10.6874	193.829	417.357	460.17	-65.0889	1248.45	0.0205431	0.00329099	35.6812	0.000785454	29.3507	0.00116082	5	40	0.0256156	5.56656e-05	0.000915337	0.00197093	0.00217311	65.0889
0.818238	1471.37	1777.91	2307.79	-50.3894	1277.84	0.0205588	0.0030579	109.403	8.35489e-05	64.9318	0.000237184	5	41	0.0256042	1.10947e-05	0.000276266	0.000333823	0.000433314	50.3894
0.0000000E+000	0.0000000E+000	0.0000000E+000	0.0000000E+000	0.0000000E+000	1493.75	0.000480197	-0.00183427	0.0000000E+000	0.0000000E+000	0.0000000E+000	0.0000000E+000	6	40	0.0000000E+000	0.0000000E+000	0.0000000E+000	0.0000000E+000	0.0000000E+000	0.0000000E+000
0.0000000E+000	0.0000000E+000	0.0000000E+000	0.0000000E+000	0.0000000E+000	1494.86	0.000476674	0.0019378	0.0000000E+000	0.0000000E+000	0.0000000E+000	0.0000000E+000	6	42	0.0000000E+000	0.0000000E+000	0.0000000E+000	0.0000000E+000	0.0000000E+000	0.0000000E+000
0.0000000E+000	0.0000000E+000	0.0000000E+000	0.0000000E+000	0.0000000E+000	1495.97	0.000448907	0.00215764	0.0000000E+000	0.0000000E+000	0.0000000E+000	0.0000000E+000	6	42	0.0000000E+000	0.0000000E+000	0.0000000E+000	0.0000000E+000	0.0000000E+000	0.0000000E+000
0.0000000E+000	0.0000000E+000	0.0000000E+000	0.0000000E+000	0.0000000E+000	1497.07	0.000464373	0.00226069	0.0000000E+000	0.0000000E+000	0.0000000E+000	0.0000000E+000	6	42	0.0000000E+000	0.0000000E+000	0.0000000E+000	0.0000000E+000	0.0000000E+000	0.0000000E+000
0.0000000E+000	0.0000000E+000	0.0000000E+000	0.0000000E+000	0.0000000E+000	1498.18	0.000474887	0.00228032	0.0000000E+000	0.0000000E+000	0.0000000E+000	0.0000000E+000	6	42	0.0000000E+000	0.0000000E+000	0.0000000E+000	0.0000000E+000	0.0000000E+000	0.0000000E+000
194922	35.9476	5.20549	36.3226	-8.2396	1506.36	0.000338344	0.00518446	0.156855	40.6448	0.00322158	96352.6	6	39	0.02586	0.000711953	0.0272469	0.00394556	0.0275311	8.2396
14921.9	43.6441	5.09085	43.94	-6.65318	1514.43	0.000317102	0.00533443	2.09511	0.227818	0.0281233	1264.35	6	39	0.0256353	0.000583416	0.022605	0.00263676	0.0227583	6.65318
1142.44	49.0192	10.6986	50.1731	-12.3119	1525.37	0.0004942	0.00545217	13.0214	0.00589769	0.592066	2.85272	6	39	0.0256766	0.000511761	0.0194726	0.00424995	0.019931	12.3119
87.4534	69.5489	81.5781	107.201	-49.551	1537.55	0.000491692	0.00523335	22.3085	0.00200937	12.9187	0.00599184	6	39	0.0256009	0.000238812	0.00605192	0.00709867	0.00932828	49.551
6.70025	323.958	643.008	720.006	-63.2603	1549.73	0.000488624	0.00293309	36.9413	0.000732783	29.4627	0.001152	6	40	0.0256097	3.55688e-05	0.00062491	0.00124035	0.00138888	63.2603
0.513338	1969.22	2500.85	3183.1	-51.7824	1594.94	0.000500579	0.00267359	123.973	6.50645e-05	76.5253	0.000170762	6	41	0.0255993	8.04228e-06	0.000194355	0.000246825	0.000314159	51.7824
0.0000000E+000	0.0000000E+000	0.0000000E+000	0.0000000E+000	0.0000000E+000	1793.09	-0.0194896	-6.48624e-05	0.0000000E+000	0.0000000E+000	0.0000000E+000	0.0000000E+000	7	42	0.0000000E+000	0.0000000E+000	0.0000000E+000	0.0000000E+000	0.0000000E+000	0.0000000E+000
0.0000000E+000	0.0000000E+000	0.0000000E+000	0.0000000E+000	0.0000000E+000	1794.2	-0.0194788	0.0014863	0.0000000E+000	0.0000000E+000	0.0000000E+000	0.0000000E+000	7	42	0.0000000E+000	0.0000000E+000	0.0000000E+000	0.0000000E+000	0.0000000E+000	0.0000000E+000
0.0000000E+000	0.0000000E+000	0.0000000E+000	0.0000000E+000	0.0000000E+000	1795.3	-0.0195075	0.00174009	0.0000000E+000	0.0000000E+000	0.0000000E+000	0.0000000E+000	7	42	0.0000000E+000	0.0000000E+000	0.0000000E+000	0.0000000E+000	0.0000000E+000	0.0000000E+000
0.0000000E+000	0.0000000E+000	0.0000000E+000	0.0000000E+000	0.0000000E+000	1796.41	-0.0194815	0.00186264	0.0000000E+000	0.0000000E+000	0.0000000E+000	0.0000000E+000	7	42	0.0000000E+000	0.0000000E+000	0.0000000E+000	0.0000000E+000	0.0000000E+000	0.0000000E+000
0.0000000E+000	0.0000000E+000	0.0000000E+000	0.0000000E+000	0.0000000E+000	1797.52	-0.0194845	0.00193419	0.0000000E+000	0.0000000E+000	0.0000000E+000	0.0000000E+000	7	42	0.0000000E+000	0.0000000E+000	0.0000000E+000	0.0000000E+000	0.0000000E+000	0.0000000E+000
122168	36.1978	4.74858	36.508	-7.47361	1806.87	-0.0196654	0.00491172	0.274346	13.2862	0.00464142	46419.3	7	39	0.0257818	0.000706198	0.0271586	0.00356277	0.0273913	7.47361
9376.82	44.3204	5.68904	44.684	-7.31458	1814.86	-0.0194805	0.00503039	2.9835	0.112344	0.0483614	427.565	7	39	0.0253446	0.000567196	0.0221972	0.00284927	0.0223794	7.31458
716.142	50.8995	18.7929	54.258	-20.265	1826.57	-0.0194955	0.00496499	11.8257	0.00715066	1.41869	0.49685	7	39	0.025611	0.000472023	0.0172896	0.00638361	0.0184305	20.265
54.842	88.0583	151.572	175.295	-59.8448	1838.77	-0.019498	0.00510247	19.1465	0.00272787	14.3149	0.00488007	7	39	0.0255381	0.000145687	0.00286571	0.00493265	0.00570468	59.8448
4.20026	686.045	1043.91	1249.16	-56.6877	1851.31	-0.0194859	0.00239719	36.2977	0.000759001	25.3494	0.00155619	7	41	0.0255261	2.04346e-05	0.000439656	0.000668998	0.000800535	56.6877
0.321502	2937.47	3820.01	4818.84	-52.4408	1922.45	-0.0194709	0.00242199	129.59	5.95466e-05	81.4359	0.000150789	7	41	0.0255243	5.29677e-06	0.000126499	0.000164505	0.000207519	52.4408
0.0000000E+000	0.0000000E+000	0.0000000E+000	0.0000000E+000	0.0000000E+000	2102.29	-0.0394866	0.00164062	0.0000000E+000	0.0000000E+000	0.0000000E+000	0.0000000E+000	8	42	0.0000000E+000	0.0000000E+000	0.0000000E+000	0.0000000E+000	0.0000000E+000	0.0000000E+000
0.0000000E+000	0.0000000E+000	0.0000000E+000	0.0000000E+000	0.0000000E+000	2103.39	-0.0394764	0.00160181	0.0000000E+000	0.0000000E+000	0.0000000E+000	0.0000000E+000	8	42	0.0000000E+000	0.0000000E+000	0.0000000E+000	0.0000000E+000	0.0000000E+000	0.0000000E+000
0.0000000E+000	0.0000000E+000	0.0000000E+000	0.0000000E+000	0.0000000E+000	2104.5	-0.0394634	0.00163827	0.0000000E+000	0.0000000E+000	0.0000000E+000	0.0000000E+000	8	42	0.0000000E+000	0.0000000E+000	0.0000000E+000	0.0000000E+000	0.0000000E+000	0.0000000E+000
0.0000000E+000	0.0000000E+000	0.0000000E+000	0.0000000E+000	0.0000000E+000	2105.61	-0.0394561	0.00168979	0.0000000E+000	0.0000000E+000	0.0000000E+000	0.0000000E+000	8	42	0.0000000E+000	0.0000000E+000	0.0000000E+000	0.0000000E+000	0.0000000E+000	0.0000000E+000
1.00002e+06	30.415	13.5962	33.3156	-24.0857	2108.57	-0.0399958	-0.00302731	0.0117056	7298.12	0.00194955	263108	8	39	0.0229138	0.00068778	0.0274026	0.0122496	0.030016	24.0857
76572.2	36.8339	4.75789	37.1399	-7.36022	2116.9	-0.0396327	0.0045257	0.436852	5.24	0.00716937	19455.3	8	39	0.0257999	0.000694666	0.0267033	0.00344931	0.0269252	7.36022
5965.69	45.3127	6.86294	45.8295	-8.6124	2125.13	-0.0394444	0.00463971	3.88731	0.0661763	0.0871724	131.596	8	39	0.0255726	0.000557995	0.021574	0.00326753	0.02182	8.6124
448.994	53.6291	35.03	64.0561	-33.1522	2137.3	-0.0394097	0.00446105	10.119	0.00976614	3.02621	0.109195	8	39	0.0255231	0.00039845	0.0130701	0.00853729	0.0156113	33.1522
34.373	134.194	309.006	336.887	-66.5259	2149.8	-0.0394519	0.00224291	14.9843	0.00445378	12.6067	0.00629212	8	40	0.0254835	7.56442e-05	0.0011824	0.0027227	0.00296836	66.5259
2.63313	1393.96	1472.96	2027.98	-46.5785	2163.41	-0.0394374	0.00202095	41.0352	0.000593863	21.6476	0.00213394	8	41	0.0254496	1.25492e-05	0.000338938	0.000358147	0.0004931	46.5785
0.201436	4858.5	5559.84	7383.55	-48.8513	2276.46	-0.0394524	0.00209774	142.109	4.95176e-05	80.5776	0.000154018	8	41	0.0254561	3.44768e-06	8.91192e-05	0.000101984	0.000135436	48.8513
0.0000000E+000	0.0000000E+000	0.0000000E+000	0.0000000E+000	0.0000000E+000	2408.87	-0.0594889	0.000628571	0.0000000E+000	0.0000000E+000	0.0000000E+000	0.0000000E+000	9	42	0.0000000E+000	0.0000000E+000	0.0000000E+000	0.0000000E+000	0.0000000E+000	0.0000000E+000
0.0000000E+000	0.0000000E+000	0.0000000E+000	0.0000000E+000	0.0000000E+000	2409.98	-0.0595051	0.00111559	0.0000000E+000	0.0000000E+000	0.0000000E+000	0.0000000E+000	9	42	0.0000000E+000	0.0000000E+000	0.0000000E+000	0.0000000E+000	0.0000000E+000	0.0000000E+000
0.0000000E+000	0.0000000E+000	0.0000000E+000	0.0000000E+000	0.0000000E+000	2411.08	-0.0595085	0.00125967	0.0000000E+000	0.0000000E+000	0.0000000E+000	0.0000000E+000	9	42	0.0000000E+000	0.0000000E+000	0.0000000E+000	0.0000000E+000	0.0000000E+000	0.0000000E+000
0.0000000E+000	0.0000000E+000	0.0000000E+000	0.0000000E+000	0.0000000E+000	2412.19	-0.0594989	0.0013172	0.0000000E+000	0.0000000E+000	0.0000000E+000	0.0000000E+000	9	42	0.0000000E+000	0.0000000E+000	0.0000000E+000	0.0000000E+000	0.0000000E+000	0.0000000E+000
626758	33.5133	4.10609	33.7639	-6.98514	2417.07	-0.0596699	0.0230217	0.0618433	261.466	0.000914627	1.1954e+06	9	38	0.0262456	0.000777329	0.0293976	0.00360183	0.0296175	6.98514
47988.3	37.4246	4.72781	37.722	-7.19998	2425.27	-0.0596681	0.0240779	0.701496	2.03212	0.0110193	8235.51	9	38	0.0254177	0.000673816	0.0263007	0.00332254	0.0265097	7.19998
3673.82	46.4137	9.4669	47.3693	-11.5284	2433.99	-0.0594876	0.00391835	4.57609	0.0477542	0.182774	29.9343	9	39	0.025472	0.000537733	0.0206848	0.00421903	0.0211107	11.5284
281.35	58.578	65.7895	88.0888	-48.3186	2446.15	-0.0594942	0.00388947	8.59837	0.013526	4.7961	0.0434735	9	39	0.0253073	0.000287293	0.00754906	0.00847842	0.0113522	48.3186
21.5517	264.047	581.588	638.722	-65.5815	2458.5	-0.0594779	0.00190633	12.6976	0.00620231	10.5276	0.00902273	9	40	0.0252627	3.95519e-05	0.000647228	0.00142558	0.00156563	65.5815
1.64995	2053.08	1777.48	2715.61	-40.8849	2475.83	-0.0594659	0.00173316	54.2682	0.000339554	23.2498	0.00184996	9	41	0.025264	9.30322e-06	0.0002784	0.000241029	0.000368241	40.8849
0.126352	7695.09	7814.68	10967.4	-45.4418	2660.74	-0.0594762	0.00197134	161.186	3.84899e-05	81.8356	0.000149319	9	42	0.0252593	2.30313e-06	6.39746e-05	6.49688e-05	9.11794e-05	45.4418
0.0000000E+000	0.0000000E+000	0.0000000E+000	0.0000000E+000	0.0000000E+000	2712.85	-0.0794855	0.000779202	0.0000000E+000	0.0000000E+000	0.0000000E+000	0.0000000E+000	10	42	0.0000000E+000	0.0000000E+000	0.0000000E+000	0.0000000E+000	0.0000000E+000	0.0000000E+000
0.0000000E+000	0.0000000E+000	0.0000000E+000	0.0000000E+000	0.0000000E+000	2713.96	-0.0795011	0.00105953	0.0000000E+000	0.0000000E+000	0.0000000E+000	0.0000000E+000	10	42	0.0000000E+000	0.0000000E+000	0.0000000E+000	0.0000000E+000	0.0000000E+000	0.0000000E+000
0.0000000E+000	0.0000000E+000	0.0000000E+000	0.0000000E+000	0.0000000E+000	2715.07	-0.079481	0.00115555	0.0000000E+000	0.0000000E+000	0.0000000E+000	0.0000000E+000	10	42	0.0000000E+000	0.0000000E+000	0.0000000E+000	0.0000000E+000	0.0000000E+000	0.0000000E+000
0.0000000E+000	0.0000000E+000	0.0000000E+000	0.0000000E+000	0.0000000E+000	2716.17	-0.0794824	0.00123903	0.0000000E+000	0.0000000E+000	0.0000000E+000	0.0000000E+000	10	42	0.0000000E+000	0.0000000E+000	0.0000000E+000	0.0000000E+000	0.0000000E+000	0.0000000E+000
392832	33.513	3.24801	33.67	-5.53569	2722.51	-0.0796365	0.02367	0.124737	64.2698	0.00116076	742190	10	38	0.0261418	0.000776411	0.0295615	0.00286503	0.0297	5.53569
30078.1	37.7987	5.41594	38.1847	-8.15406	2730.46	-0.0796801	0.0249739	0.977003	1.04763	0.0196546	2588.64	10	38	0.0264172	0.000691826	0.0259237	0.00371445	0.0261885	8.15406
2302.79	47.3859	14.3817	49.5203	-16.8832	2740.13	-0.0794832	0.00358264	4.80568	0.0433003	0.405332	6.08664	10	39	0.0255421	0.00051579	0.0193234	0.00586469	0.0201937	16.8832
176.298	69.2504	122.091	140.363	-60.438	2752.29	-0.0794626	0.00377098	7.39416	0.0182904	5.59435	0.0319522	10	39	0.0253251	0.000180425	0.00351492	0.00619693	0.00712437	60.438
13.5009	561.87	961.972	1114.04	-59.7116	2764.63	-0.0794707	0.00171931	12.2545	0.00665901	9.13729	0.0119775	10	40	0.0252807	2.26928e-05	0.000452724	0.000775104	0.000897633	59.7116
1.0334	2685.93	2334.87	3558.91	-41.0004	2788.7	-0.0794643	0.00151858	65.961	0.00022984	28.391	0.00124062	10	41	0.0253	7.10891e-06	0.000212061	0.000184344	0.000280985	41.0004
0.0000000E+000	0.0000000E+000	0.0000000E+000	0.0000000E+000	0.0000000E+000	3015.84	-0.0994661	0.00122629	0.0000000E+000	0.0000000E+000	0.0000000E+000	0.0000000E+000	11	41	0.0000000E+000	0.0000000E+000	0.0000000E+000	0.0000000E+000	0.0000000E+000	0.0000000E+000
0.0000000E+000	0.0000000E+000	0.0000000E+000	0.0000000E+000	0.0000000E+000	3016.94	-0.099455	0.000648698	0.0000000E+000	0.0000000E+000	0.0000000E+000	0.0000000E+000	11	42	0.0000000E+000	0.0000000E+000	0.0000000E+000	0.0000000E+000	0.0000000E+000	0.0000000E+000
0.0000000E+000	0.0000000E+000	0.0000000E+000	0.0000000E+000	0.0000000E+000	3018.05	-0.0994365	0.000710601	0.0000000E+000	0.0000000E+000	0.0000000E+000	0.0000000E+000	11	42	0.0000000E+000	0.0000000E+000	0.0000000E+000	0.0000000E+000	0.0000000E+000	0.0000000E+000
0.0000000E+000	0.0000000E+000	0.0000000E+000	0.0000000E+000	0.0000000E+000	3019.15	-0.0994541	0.000751415	0.0000000E+000	0.0000000E+000	0.0000000E+000	0.0000000E+000	11	42	0.0000000E+000	0.0000000E+000	0.0000000E+000	0.0000000E+000	0.0000000E+000	0.0000000E+000
0.0000000E+000	0.0000000E+000	0.0000000E+000	0.0000000E+000	0.0000000E+000	3020.26	-0.0994489	0.000801536	0.0000000E+000	0.0000000E+000	0.0000000E+000	0.0000000E+000	11	42	0.0000000E+000	0.0000000E+000	0.0000000E+000	0.0000000E+000	0.0000000E+000	0.0000000E+000
246211	33.7915	2.98962	33.9235	-5.05594	3027.76	-0.099628	0.0268051	0.216221	21.3897	0.0016793	354605	11	38	0.026036	0.000767493	0.0293634	0.00259785	0.0294781	5.05594
18847.7	39.2614	6.64237	39.8194	-9.60254	3035.46	-0.0996559	0.027934	1.27128	0.618757	0.0353751	799.109	11	38	0.0263878	0.000662689	0.0247615	0.00418923	0.0251134	9.60254
1443.62	48.8254	22.6857	53.8383	-24.9209	3046.08	-0.0994591	0.00362456	4.85978	0.0423416	0.862854	1.34315	11	39	0.0254417	0.000472558	0.0168447	0.00782653	0.0185741	24.9209
110.531	93.6174	214.455	233.998	-66.417	3058.48	-0.0994652	0.00130077	6.71429	0.0221819	5.63959	0.0314416	11	40	0.0253457	0.000108316	0.00170974	0.00391662	0.00427353	66.417
8.46423	1068.52	1293.39	1677.67	-50.4385	3070.93	-0.0994556	0.00107028	14.538	0.00473143	8.64067	0.0133939	11	41	0.0252324	1.50402e-05	0.000379637	0.000459531	0.000596064	50.4385
0.647803	3512.86	3111.72	4692.86	-41.5347	3106.69	-0.0994556	0.00107575	78.9546	0.000160415	34.7137	0.000829845	11	41	0.0252213	5.37439e-06	0.000159509	0.000141294	0.000213089	41.5347
0.0000000E+000	0.0000000E+000	0.0000000E+000	0.0000000E+000	0.0000000E+000	3317.91	-0.119457	-0.0011661	0.0000000E+000	0.0000000E+000	0.0000000E+000	0.0000000E+000	12	42	0.0000000E+000	0.0000000E+000	0.0000000E+000	0.0000000E+000	0.0000000E+000	0.0000000E+000
0.0000000E+000	0.0000000E+000	0.0000000E+000	0.0000000E+000	0.0000000E+000	3319.02	-0.119453	-8.71899e-05	0.0000000E+000	0.0000000E+000	0.0000000E+000	0.0000000E+000	12	42	0.0000000E+000	0.0000000E+000	0.0000000E+000	0.0000000E+000	0.0000000E+000	0.0000000E+000
0.0000000E+000	0.0000000E+000	0.0000000E+000	0.0000000E+000	0.0000000E+000	3320.13	-0.119429	0.00014938	0.0000000E+000	0.0000000E+000	0.0000000E+000	0.0000000E+000	12	42	0.0000000E+000	0.0000000E+000	0.0000000E+000	0.0000000E+000	0.0000000E+000	0.0000000E+000
0.0000000E+000	0.0000000E+000	0.0000000E+000	0.0000000E+000	0.0000000E+000	3321.23	-0.11945	0.00027314	0.0000000E+000	0.0000000E+000	0.0000000E+000	0.0000000E+000	12	42	0.0000000E+000	0.0000000E+000	0.0000000E+000	0.0000000E+000	0.0000000E+000	0.0000000E+000
0.0000000E+000	0.0000000E+000	0.0000000E+000	0.0000000E+000	0.0000000E+000	3322.34	-0.119457	0.000342429	0.0000000E+000	0.0000000E+000	0.0000000E+000	0.0000000E+000	12	42	0.0000000E+000	0.0000000E+000	0.0000000E+000	0.0000000E+000	0.0000000E+000	0.0000000E+000
154316	34.2612	3.13729	34.4045	-5.23198	3331.15	-0.119607	0.0293777	0.32874	9.25325	0.00273358	133825	12	38	0.0257192	0.000747553	0.0289448	0.00265047	0.0290659	5.23198
11816.4	41.0318	8.1194	41.8274	-11.1931	3338.61	-0.119631	0.0281091	1.65886	0.363395	0.0625081	255.934	12	38	0.0250861	0.000599752	0.023453	0.00464089	0.0239077	11.1931
904.709	50.9934	37.1218	63.0742	-36.0536	3350.17	-0.11943	0.00327301	4.73895	0.0445282	1.64149	0.37113	12	39	0.025397	0.000402652	0.0128177	0.00933095	0.0158543	36.0536
69.2685	144.566	355.819	384.065	-67.8885	3362.61	-0.119414	0.000913542	6.45737	0.0239822	5.54246	0.0325533	12	40	0.0252624	6.57763e-05	0.000980069	0.00241223	0.00260372	67.8885
5.3038	1650.9	1517.94	2242.68	-42.5975	3374.74	-0.119434	0.000665188	19.7687	0.00255885	9.05636	0.0121925	12	41	0.0252242	1.12473e-05	0.000328235	0.000301801	0.000445895	42.5975
0.406393	4812.11	4048.46	6288.6	-40.0741	3433.75	-0.119422	0.000700061	96.7351	0.000106864	40.0919	0.000622138	12	42	0.0252219	4.01073e-06	0.000121682	0.000102372	0.000159018	40.0741
0.0000000E+000	0.0000000E+000	0.0000000E+000	0.0000000E+000	0.0000000E+000	3619.37	-0.139444	-0.00111905	0.0000000E+000	0.0000000E+000	0.0000000E+000	0.0000000E+000	13	42	0.0000000E+000	0.0000000E+000	0.0000000E+000	0.0000000E+000	0.0000000E+000	0.0000000E+000
0.0000000E+000	0.0000000E+000	0.0000000E+000	0.0000000E+000	0.0000000E+000	3620.48	-0.139417	-0.000380234	0.0000000E+000	0.0000000E+000	0.0000000E+000	0.0000000E+000	13	42	0.0000000E+000	0.0000000E+000	0.0000000E+000	0.0000000E+000	0.0000000E+000	0.0000000E+000
0.0000000E+000	0.0000000E+000	0.0000000E+000	0.0000000E+000	0.0000000E+000	3621.58	-0.139432	-0.000233728	0.0000000E+000	0.0000000E+000	0.0000000E+000	0.0000000E+000	13	42	0.0000000E+000	0.0000000E+000	0.0000000E+000	0.0000000E+000	0.0000000E+000	0.0000000E+000
0.0000000E+000	0.0000000E+000	0.0000000E+000	0.0000000E+000	0.0000000E+000	3622.69	-0.139432	-0.000150536	0.0000000E+000	0.0000000E+000	0.0000000E+000	0.0000000E+000	13	42	0.0000000E+000	0.0000000E+000	0.0000000E+000	0.0000000E+000	0.0000000E+000	0.0000000E+000
0.0000000E+000	0.0000000E+000	0.0000000E+000	0.0000000E+000	0.0000000E+000	3623.8	-0.139452	-0.000116755	0.0000000E+000	0.0000000E+000	0.0000000E+000	0.0000000E+000	13	42	0.0000000E+000	0.0000000E+000	0.0000000E+000	0.0000000E+000	0.0000000E+000	0.0000000E+000
96718.7	34.9254	3.57349	35.1077	-5.84204	3634.06	-0.139644	0.0240239	0.460487	4.71591	0.00477085	43934.7	13	38	0.0257678	0.000733962	0.0283358	0.00289926	0.0284837	5.84204
7540.05	42.9192	10.0738	44.0856	-13.2091	3641.75	-0.13942	0.00251383	2.09533	0.227769	0.109407	83.5425	13	39	0.0256136	0.000580997	0.022083	0.00518323	0.0226832	13.2091
566.996	54.9033	61.2818	82.279	-48.1424	3653.78	-0.139425	0.00259878	4.58045	0.0476632	2.54094	0.154886	13	39	0.0253628	0.000308253	0.00810999	0.00905219	0.0121538	48.1424
43.4028	247.118	562.152	614.071	-66.27	3666.26	-0.139433	0.000360647	6.52302	0.0235019	5.46664	0.0334626	13	40	0.0252742	4.11584e-05	0.000655343	0.00149079	0.00162848	66.27
3.32447	2178.71	1695.17	2760.5	-37.8852	3679.06	-0.139411	0.000108296	28.2413	0.00125381	10.6497	0.00881717	13	41	0.0252655	9.1525e-06	0.000285906	0.000222453	0.000362253	37.8852
0.254446	6551.89	5341.63	8453.42	-39.1897	3770.3	-0.139444	0.000131326	117.099	7.29285e-05	46.7557	0.000457437	13	42	0.0252625	2.98844e-06	9.16858e-05	7.47497e-05	0.000118295	39.1897
0.0000000E+000	0.0000000E+000	0.0000000E+000	0.0000000E+000	0.0000000E+000	3920.06	-0.159463	-0.00153608	0.0000000E+000	0.0000000E+000	0.0000000E+000	0.0000000E+000	14	42	0.0000000E+000	0.0000000E+000	0.0000000E+000	0.0000000E+000	0.0000000E+000	0.0000000E+000
0.0000000E+000	0.0000000E+000	0.0000000E+000	0.0000000E+000	0.0000000E+000	3921.16	-0.159456	-0.00108614	0.0000000E+000	0.0000000E+000	0.0000000E+000	0.0000000E+000	14	42	0.0000000E+000	0.0000000E+000	0.0000000E+000	0.0000000E+000	0.0000000E+000	0.0000000E+000
0.0000000E+000	0.0000000E+000	0.0000000E+000	0.0000000E+000	0.0000000E+000	3922.27	-0.159471	-0.000880995	0.0000000E+000	0.0000000E+000	0.0000000E+000	0.0000000E+000	14	42	0.0000000E+000	0.0000000E+000	0.0000000E+000	0.0000000E+000	0.0000000E+000	0.0000000E+000
0.0000000E+000	0.0000000E+000	0.0000000E+000	0.0000000E+000	0.0000000E+000	3923.38	-0.15946	-0.000772462	0.0000000E+000	0.0000000E+000	0.0000000E+000	0.0000000E+000	14	42	0.0000000E+000	0.0000000E+000	0.0000000E+000	0.0000000E+000	0.0000000E+000	0.0000000E+000
791680	32.6897	4.59353	33.0109	-7.99879	3928.09	-0.159611	0.0244188	0.0437647	522.098	0.00084743	1.39249e+06	14	38	0.0261379	0.000791797	0.0299983	0.00421535	0.0302931	7.99879
60615.2	35.7913	4.29815	36.0485	-6.84781	3936.29	-0.159623	0.02606	0.610882	2.6797	0.00868452	13258.9	14	38	0.0271341	0.000752712	0.0275425	0.00330756	0.0277404	6.84781
4641.48	44.9698	13.1673	46.8579	-16.3203	3944.66	-0.159447	0.00196518	2.60415	0.147458	0.205635	23.6487	14	39	0.0256622	0.00054766	0.0204812	0.00599699	0.0213411	16.3203
355.341	62.4905	100.589	118.419	-58.1495	3956.83	-0.159446	0.00212353	4.45272	0.050437	3.21276	0.0968822	14	39	0.0252829	0.000213503	0.00445624	0.00717305	0.00844456	58.1495
27.2212	448.046	822.506	936.622	-61.4214	3969.24	-0.159433	-0.000190718	7.10843	0.0197903	5.48179	0.0332778	14	40	0.0252371	2.69448e-05	0.000510733	0.000937584	0.00106767	61.4214
2.08444	2544.7	1949.05	3205.35	-37.4494	3984.42	-0.159439	-0.000431545	39.1749	0.000651606	14.4844	0.00476646	14	41	0.0252257	7.86986e-06	0.000247676	0.000189702	0.000311978	37.4494
0.159494	8917.24	6379.92	10964.5	-35.5822	4128.61	-0.159454	-0.000441481	156.409	4.08769e-05	52.9557	0.000356595	14	42	0.0252198	2.30013e-06	7.4174e-05	5.30685e-05	9.12033e-05	35.5822
0.0000000E+000	0.0000000E+000	0.0000000E+000	0.0000000E+000	0.0000000E+000	4221.09	-0.179401	-0.00202096	0.0000000E+000	0.0000000E+000	0.0000000E+000	0.0000000E+000	15	42	0.0000000E+000	0.0000000E+000	0.0000000E+000	0.0000000E+000	0.0000000E+000	0.0000000E+000
0.0000000E+000	0.0000000E+000	0.0000000E+000	0.0000000E+000	0.0000000E+000	4222.19	-0.179417	-0.00162899	0.0000000E+000	0.0000000E+000	0.0000000E+000	0.0000000E+000	15	42	0.0000000E+000	0.0000000E+000	0.0000000E+000	0.0000000E+000	0.0000000E+000	0.0000000E+000
0.0000000E+000	0.0000000E+000	0.0000000E+000	0.0000000E+000	0.0000000E+000	4223.29	-0.179403	-0.00147388	0.0000000E+000	0.0000000E+000	0.0000000E+000	0.0000000E+000	15	42	0.0000000E+000	0.0000000E+000	0.0000000E+000	0.0000000E+000	0.0000000E+000	0.0000000E+000
0.0000000E+000	0.0000000E+000	0.0000000E+000	0.0000000E+000	0.0000000E+000	4224.4	-0.179417	-0.00138867	0.0000000E+000	0.0000000E+000	0.0000000E+000	0.0000000E+000	15	42	0.0000000E+000	0.0000000E+000	0.0000000E+000	0.0000000E+000	0.0000000E+000	0.0000000E+000
496191	33.1268	3.57534	33.3192	-6.16003	4230.09	-0.179608	0.0195363	0.0897127	124.249	0.001033	937131	15	38	0.0260256	0.0007811	0.0298395	0.00322054	0.0300128	6.16003
37998	36.9214	5.2898	37.2984	-8.1534	4238.16	-0.17958	0.0201063	0.791808	1.595	0.0159264	3942.42	15	38	0.0261614	0.000701409	0.0265398	0.00380241	0.0268108	8.1534
2909.07	46.7902	18.2431	50.2208	-21.3004	4247.36	-0.17942	0.00115719	2.99894	0.11119	0.395728	6.38568	15	39	0.0256139	0.000510026	0.0185518	0.0072332	0.0199121	21.3004
222.79	77.2532	161.856	179.347	-64.485	4259.53	-0.179418	0.00130715	4.41363	0.0513344	3.59471	0.0773877	15	39	0.025247	0.000140772	0.00240175	0.00503199	0.00557578	64.485
17.0579	771.625	1138.11	1375.03	-55.8633	4271.75	-0.179405	-0.000836532	8.19803	0.0148793	5.61638	0.031702	15	40	0.0252408	1.83565e-05	0.000408114	0.000601951	0.000727257	55.8633
1.30535	3166.2	2613.22	4105.33	-39.5344	4292.07	-0.179408	-0.00103365	46.6572	0.000459371	18.9048	0.00279805	15	41	0.0252275	6.14505e-06	0.000187864	0.000155052	0.000243586	39.5344
0.100051	11417.9	6521.5	13149.1	-29.7335	4521.07	-0.179414	-0.0010183	243.922	1.68073e-05	60.0005	0.000277773	15	42	0.0252261	1.91846e-06	6.60381e-05	3.77186e-05	7.60508e-05	29.7335
0.0000000E+000	0.0000000E+000	0.0000000E+000	0.0000000E+000	0.0000000E+000	4522.19	-0.199425	-0.00240619	0.0000000E+000	0.0000000E+000	0.0000000E+000	0.0000000E+000	16	42	0.0000000E+000	0.0000000E+000	0.0000000E+000	0.0000000E+000	0.0000000E+000	0.0000000E+000
0.0000000E+000	0.0000000E+000	0.0000000E+000	0.0000000E+000	0.0000000E+000	4523.29	-0.199426	-0.00213058	0.0000000E+000	0.0000000E+000	0.0000000E+000	0.0000000E+000	16	42	0.0000000E+000	0.0000000E+000	0.0000000E+000	0.0000000E+000	0.0000000E+000	0.0000000E+000
0.0000000E+000	0.0000000E+000	0.0000000E+000	0.0000000E+000	0.0000000E+000	4524.39	-0.199414	-0.00201356	0.0000000E+000	0.0000000E+000	0.0000000E+000	0.0000000E+000	16	42	0.0000000E+000	0.0000000E+000	0.0000000E+000	0.0000000E+000	0.0000000E+000	0.0000000E+000
0.0000000E+000	0.0000000E+000	0.0000000E+000	0.0000000E+000	0.0000000E+000	4525.5	-0.199415	-0.00196219	0.0000000E+000	0.0000000E+000	0.0000000E+000	0.0000000E+000	16	42	0.0000000E+000	0.0000000E+000	0.0000000E+000	0.0000000E+000	0.0000000E+000	0.0000000E+000
310996	33.5832	3.12706	33.7285	-5.31969	4532.35	-0.199571	0.0206279	0.163655	37.3373	0.00140672	505341	16	38	0.025937	0.000768993	0.0295208	0.00274879	0.0296485	5.31969
23808.6	38.3978	6.65458	38.9701	-9.83207	4540.18	-0.199571	0.0209297	1.00454	0.990988	0.0292916	1165.5	16	38	0.0265693	0.000681785	0.0252838	0.00438184	0.0256607	9.83207
1823.25	48.7854	26.8688	55.6951	-28.844	4550.32	-0.199391	0.000591953	3.24883	0.0947427	0.756116	1.74913	16	39	0.02554	0.000458568	0.0157274	0.00866191	0.0179549	28.844
139.598	104.682	254.526	275.212	-67.6434	4562.73	-0.199395	-0.00149131	4.4793	0.0498402	3.83123	0.0681276	16	40	0.0253597	9.21462e-05	0.0013821	0.00336044	0.00363356	67.6434
10.6874	1234.91	1414.21	1877.5	-48.872	4574.97	-0.199402	-0.00169571	10.5301	0.00901847	5.97452	0.0280152	16	41	0.0252312	1.34387e-05	0.00035033	0.000401195	0.000532624	48.872
0.818238	4116.2	3370.1	5319.84	-39.3085	4604.08	-0.19937	-0.00171148	57.7163	0.000300195	23.1626	0.00186392	16	41	0.0252242	4.74153e-06	0.000145445	0.000119082	0.000187976	39.3085
0.0000000E+000	0.0000000E+000	0.0000000E+000	0.0000000E+000	0.0000000E+000	4823.15	-0.219419	-0.00471849	0.0000000E+000	0.0000000E+000	0.0000000E+000	0.0000000E+000	17	41	0.0000000E+000	0.0000000E+000	0.0000000E+000	0.0000000E+000	0.0000000E+000	0.0000000E+000
0.0000000E+000	0.0000000E+000	0.0000000E+000	0.0000000E+000	0.0000000E+000	4824.25	-0.219413	-0.00296511	0.0000000E+000	0.0000000E+000	0.0000000E+000	0.0000000E+000	17	42	0.0000000E+000	0.0000000E+000	0.0000000E+000	0.0000000E+000	0.0000000E+000	0.0000000E+000
0.0000000E+000	0.0000000E+000	0.0000000E+000	0.0000000E+000	0.0000000E+000	4825.35	-0.219415	-0.0028426	0.0000000E+000	0.0000000E+000	0.0000000E+000	0.0000000E+000	17	42	0.0000000E+000	0.0000000E+000	0.0000000E+000	0.0000000E+000	0.0000000E+000	0.0000000E+000
0.0000000E+000	0.0000000E+000	0.0000000E+000	0.0000000E+000	0.0000000E+000	4826.45	-0.219409	-0.00277238	0.0000000E+000	0.0000000E+000	0.0000000E+000	0.0000000E+000	17	42	0.0000000E+000	0.0000000E+000	0.0000000E+000	0.0000000E+000	0.0000000E+000	0.0000000E+000
0.0000000E+000	0.0000000E+000	0.0000000E+000	0.0000000E+000	0.0000000E+000	4827.56	-0.219421	-0.00275192	0.0000000E+000	0.0000000E+000	0.0000000E+000	0.0000000E+000	17	42	0.0000000E+000	0.0000000E+000	0.0000000E+000	0.0000000E+000	0.0000000E+000	0.0000000E+000
194922	34.0067	3.10552	34.1482	-5.21782	4835.73	-0.219586	0.0195791	0.262921	14.466	0.00217449	211487	17	38	0.0261623	0.000766141	0.0291628	0.00266317	0.0292841	5.21782
14921.9	40.1016	8.34387	40.9605	-11.7537	4843.31	-0.21962	0.0219245	1.27829	0.611986	0.0530437	355.412	17	38	0.0258561	0.000631245	0.0239019	0.00497322	0.0244138	11.7537
1142.44	51.6047	40.8439	65.8124	-38.3608	4854.4	-0.219462	-5.41395e-05	3.41082	0.0859573	1.3137	0.579435	17	39	0.0254866	0.000387261	0.0119145	0.00943	0.0151947	38.3608
87.4534	155.013	387.72	417.56	-68.2081	4866.83	-0.219424	-0.00234494	4.6938	0.045389	4.04692	0.0610592	17	40	0.0253142	6.06242e-05	0.000889061	0.00222373	0.00239487	68.2081
6.70025	1750.76	1625.2	2388.81	-42.8699	4878.98	-0.219424	-0.00259509	14.6158	0.00468117	6.76503	0.0218504	17	41	0.0252655	1.05766e-05	0.000306805	0.000284801	0.000418618	42.8699
0.513338	5458.33	4277.43	6934.68	-38.0841	4923.9	-0.219422	-0.0026086	72.4825	0.000190341	27.577	0.00131494	17	41	0.0252618	3.64281e-06	0.000113503	8.89468e-05	0.000144203	38.0841
0.0000000E+000	0.0000000E+000	0.0000000E+000	0.0000000E+000	0.0000000E+000	5128.37	-0.239406	-0.0040044	0.0000000E+000	0.0000000E+000	0.0000000E+000	0.0000000E+000	18	42	0.0000000E+000	0.0000000E+000	0.0000000E+000	0.0000000E+000	0.0000000E+000	0.0000000E+000
0.0000000E+000	0.0000000E+000	0.0000000E+000	0.0000000E+000	0.0000000E+000	5129.48	-0.23941	-0.00396966	0.0000000E+000	0.0000000E+000	0.0000000E+000	0.0000000E+000	18	42	0.0000000E+000	0.0000000E+000	0.0000000E+000	0.0000000E+000	0.0000000E+000	0.0000000E+000
0.0000000E+000	0.0000000E+000	0.0000000E+000	0.0000000E+000	0.0000000E+000	5130.58	-0.239419	-0.00393185	0.0000000E+000	0.0000000E+000	0.0000000E+000	0.0000000E+000	18	42	0.0000000E+000	0.0000000E+000	0.0000000E+000	0.0000000E+000	0.0000000E+000	0.0000000E+000
0.0000000E+000	0.0000000E+000	0.0000000E+000	0.0000000E+000	0.0000000E+000	5131.68	-0.239422	-0.0038675	0.0000000E+000	0.0000000E+000	0.0000000E+000	0.0000000E+000	18	42	0.0000000E+000	0.0000000E+000	0.0000000E+000	0.0000000E+000	0.0000000E+000	0.0000000E+000
0.0000000E+000	0.0000000E+000	0.0000000E+000	0.0000000E+000	0.0000000E+000	5132.79	-0.239422	-0.00386128	0.0000000E+000	0.0000000E+000	0.0000000E+000	0.0000000E+000	18	42	0.0000000E+000	0.0000000E+000	0.0000000E+000	0.0000000E+000	0.0000000E+000	0.0000000E+000
122168	34.5288	3.44694	34.7004	-5.70083	5142.27	-0.239585	0.0214047	0.377946	7.0007	0.00372929	71902.9	18	38	0.0254822	0.000734349	0.0286756	0.00286262	0.0288181	5.70083
9376.82	42.0922	10.6132	43.4096	-14.1517	5149.93	-0.239433	-0.00123994	1.59925	0.39099	0.0955961	109.426	18	39	0.0255966	0.000589653	0.0223373	0.00563217	0.0230364	14.1517
716.142	56.3461	62.0337	83.8037	-47.7507	5161.64	-0.239421	-0.00127572	3.58256	0.0779138	1.96301	0.259511	18	39	0.0253431	0.00030241	0.008023	0.00883286	0.0119326	47.7507
54.842	244.808	565.312	616.042	-66.585	5174.09	-0.239406	-0.00353251	5.13356	0.0379457	4.32288	0.0535122	18	40	0.0252455	4.09801e-05	0.000645066	0.00148959	0.00162327	66.585
4.20026	2214.08	1811.26	2860.56	-39.2854	5186.36	-0.239407	-0.00380075	20.92	0.00228495	8.38729	0.0142153	18	41	0.0252267	8.81877e-06	0.000270576	0.000221349	0.000349581	39.2854
0.321502	7164.22	4295.2	8353.13	-30.9442	5257.51	-0.239411	-0.00384359	115.253	7.52826e-05	30.4734	0.00107686	18	41	0.0252273	3.0201e-06	0.000102676	6.1558e-05	0.000119716	30.9442
0.0000000E+000	0.0000000E+000	0.0000000E+000	0.0000000E+000	0.0000000E+000	5427.29	-0.259421	-0.00594928	0.0000000E+000	0.0000000E+000	0.0000000E+000	0.0000000E+000	19	41	0.0000000E+000	0.0000000E+000	0.0000000E+000	0.0000000E+000	0.0000000E+000	0.0000000E+000
0.0000000E+000	0.0000000E+000	0.0000000E+000	0.0000000E+000	0.0000000E+000	5428.39	-0.2594	-0.00548155	0.0000000E+000	0.0000000E+000	0.0000000E+000	0.0000000E+000	19	41	0.0000000E+000	0.0000000E+000	0.0000000E+000	0.0000000E+000	0.0000000E+000	0.0000000E+000
0.0000000E+000	0.0000000E+000	0.0000000E+000	0.0000000E+000	0.0000000E+000	5429.5	-0.259417	-0.00534288	0.0000000E+000	0.0000000E+000	0.0000000E+000	0.0000000E+000	19	41	0.0000000E+000	0.0000000E+000	0.0000000E+000	0.0000000E+000	0.0000000E+000	0.0000000E+000
0.0000000E+000	0.0000000E+000	0.0000000E+000	0.0000000E+000	0.0000000E+000	5430.6	-0.259382	-0.00524239	0.0000000E+000	0.0000000E+000	0.0000000E+000	0.0000000E+000	19	41	0.0000000E+000	0.0000000E+000	0.0000000E+000	0.0000000E+000	0.0000000E+000	0.0000000E+000
1.00002e+06	32.2919	5.44329	32.7475	-9.56812	5434.2	-0.2592	0.0349103	0.0292382	1169.77	0.000807825	1.53238e+06	19	38	0.0235355	0.000718698	0.0301119	0.00507581	0.0305367	9.56812
76572.2	35.2881	4.04661	35.5193	-6.54173	5442.53	-0.259609	0.0200709	0.513639	3.79039	0.00666668	22499.9	19	38	0.0253623	0.000714041	0.0279704	0.00320746	0.0281537	6.54173
5965.69	44.2751	13.5303	46.2964	-16.9929	5450.43	-0.259464	-0.00249095	1.97175	0.257214	0.168411	35.258	19	39	0.0257668	0.000556563	0.0206569	0.00631265	0.0215999	16.9929
448.994	64.4971	92.6011	112.849	-55.1426	5462.6	-0.259422	-0.00265155	3.82792	0.0682455	2.57752	0.150521	19	39	0.025291	0.000224114	0.00506461	0.00727148	0.00886142	55.1426
34.373	382.515	793.687	881.054	-64.2684	5475.09	-0.259418	-0.00493242	5.83382	0.0293829	4.7342	0.0446177	19	40	0.025225	2.86305e-05	0.000492768	0.00102245	0.001135	64.2684
2.63313	2735.54	2129.51	3466.69	-37.8993	5488.74	-0.259418	-0.00519287	28.3837	0.00124126	10.7102	0.00871784	19	41	0.0252211	7.27526e-06	0.000227621	0.000177194	0.000288459	37.8993
0.201436	8559.49	3590.09	9281.89	-22.7545	5601.79	-0.259406	-0.00526359	220.078	2.06464e-05	32.9242	0.000922508	19	41	0.0252193	2.71705e-06	9.93515e-05	4.16708e-05	0.000107737	22.7545
0.0000000E+000	0.0000000E+000	0.0000000E+000	0.0000000E+000	0.0000000E+000	5726.24	-0.279388	-0.00720364	0.0000000E+000	0.0000000E+000	0.0000000E+000	0.0000000E+000	20	41	0.0000000E+000	0.0000000E+000	0.0000000E+000	0.0000000E+000	0.0000000E+000	0.0000000E+000
0.0000000E+000	0.0000000E+000	0.0000000E+000	0.0000000E+000	0.0000000E+000	5727.34	-0.279389	-0.00691683	0.0000000E+000	0.0000000E+000	0.0000000E+000	0.0000000E+000	20	41	0.0000000E+000	0.0000000E+000	0.0000000E+000	0.0000000E+000	0.0000000E+000	0.0000000E+000
0.0000000E+000	0.0000000E+000	0.0000000E+000	0.0000000E+000	0.0000000E+000	5728.44	-0.279384	-0.00681913	0.0000000E+000	0.0000000E+000	0.0000000E+000	0.0000000E+000	20	41	0.0000000E+000	0.0000000E+000	0.0000000E+000	0.0000000E+000	0.0000000E+000	0.0000000E+000
0.0000000E+000	0.0000000E+000	0.0000000E+000	0.0000000E+000	0.0000000E+000	5729.55	-0.279383	-0.00675912	0.0000000E+000	0.0000000E+000	0.0000000E+000	0.0000000E+000	20	41	0.0000000E+000	0.0000000E+000	0.0000000E+000	0.0000000E+000	0.0000000E+000	0.0000000E+000
626758	32.8698	4.00866	33.1134	-6.9532	5734.46	-0.279568	0.0219357	0.0633464	249.205	0.000928352	1.16031e+06	20	38	0.0263798	0.000796651	0.0299772	0.00365588	0.0301993	6.9532
47988.3	36.2735	5.03907	36.6219	-7.90884	5742.66	-0.279557	0.0211812	0.658165	2.30851	0.0124611	6440.06	20	38	0.0253524	0.000692275	0.0270464	0.00375725	0.0273061	7.90884
3673.82	46.8625	18.1084	50.2395	-21.1273	5751.39	-0.279394	-0.00413618	2.39233	0.174726	0.310808	10.3518	20	39	0.0256651	0.000510854	0.0185667	0.00717447	0.0199046	21.1273
281.35	77.872	133.591	154.631	-59.7616	5763.55	-0.279375	-0.00409017	4.23443	0.0557713	3.16052	0.100111	20	39	0.0252133	0.000163055	0.00325679	0.0055871	0.00646702	59.7616
21.5517	591.758	1051.76	1206.8	-60.6362	5775.9	-0.279401	-0.00651775	7.0214	0.020284	5.33313	0.0351589	20	40	0.0251826	2.08672e-05	0.000406324	0.000722177	0.000828637	60.6362
1.64995	3383.82	2523.1	4220.93	-36.7096	5793.22	-0.27939	-0.00675156	38.231	0.000684176	13.6605	0.00535876	20	41	0.0251822	5.96603e-06	0.000189929	0.000141618	0.000236914	36.7096
0.126352	9364.34	2579.93	9713.24	-15.4032	5973.12	-0.279381	-0.00665337	488.236	4.19508e-06	34.4443	0.00084288	20	41	0.0251882	2.59318e-06	9.92543e-05	2.73451e-05	0.000102952	15.4032
0.0000000E+000	0.0000000E+000	0.0000000E+000	0.0000000E+000	0.0000000E+000	6025.23	-0.299403	-0.00842978	0.0000000E+000	0.0000000E+000	0.0000000E+000	0.0000000E+000	21	41	0.0000000E+000	0.0000000E+000	0.0000000E+000	0.0000000E+000	0.0000000E+000	0.0000000E+000
0.0000000E+000	0.0000000E+000	0.0000000E+000	0.0000000E+000	0.0000000E+000	6026.33	-0.299411	-0.00839213	0.0000000E+000	0.0000000E+000	0.0000000E+000	0.0000000E+000	21	41	0.0000000E+000	0.0000000E+000	0.0000000E+000	0.0000000E+000	0.0000000E+000	0.0000000E+000
0.0000000E+000	0.0000000E+000	0.0000000E+000	0.0000000E+000	0.0000000E+000	6027.43	-0.299404	-0.00836174	0.0000000E+000	0.0000000E+000	0.0000000E+000	0.0000000E+000	21	41	0.0000000E+000	0.0000000E+000	0.0000000E+000	0.0000000E+000	0.0000000E+000	0.0000000E+000
0.0000000E+000	0.0000000E+000	0.0000000E+000	0.0000000E+000	0.0000000E+000	6028.54	-0.299405	-0.00836713	0.0000000E+000	0.0000000E+000	0.0000000E+000	0.0000000E+000	21	41	0.0000000E+000	0.0000000E+000	0.0000000E+000	0.0000000E+000	0.0000000E+000	0.0000000E+000
392832	33.2795	3.32152	33.4448	-5.69963	6034.77	-0.2996	0.019432	0.121977	67.2119	0.00120307	690900	21	38	0.0261042	0.000780516	0.0297522	0.00296947	0.0299	5.69963
30078.1	37.5347	6.31131	38.0616	-9.54478	6042.72	-0.299597	0.0185099	0.838397	1.42266	0.0230523	1881.78	21	38	0.0264887	0.000695944	0.0259095	0.00435658	0.0262732	9.54478
2302.79	50.0162	24.9224	55.8815	-26.4865	6052.39	-0.299465	-0.00549617	2.77317	0.130031	0.551594	3.28671	21	39	0.0255716	0.000457603	0.0160167	0.00798093	0.017895	26.4865
176.298	97.9818	184.993	209.339	-62.092	6064.55	-0.299436	-0.00588332	4.87998	0.0419918	3.8109	0.0688564	21	39	0.0252207	0.000120478	0.00223586	0.00422138	0.00477694	62.092
13.5009	878.727	1301.9	1570.7	-55.9824	6077.16	-0.299404	-0.00842693	9.05481	0.0121967	6.22082	0.0258408	21	41	0.0252326	1.60645e-05	0.000356177	0.000527703	0.000636658	55.9824
1.0334	4231.76	2852.76	5103.53	-33.9851	6100.99	-0.299392	-0.00837934	53.9866	0.000343106	16.8684	0.00351441	21	41	0.0252222	4.94211e-06	0.000162472	0.000109528	0.000195943	33.9851
0.100051	9027.72	1753.55	9196.45	-10.9923	6323	-0.299422	-0.00842022	907.156	1.21517e-06	32.9819	0.00091928	21	41	0.0252167	2.742e-06	0.000106743	2.07337e-05	0.000108738	10.9923